maintenance wood exercise maintenance credit permission maintenance driver temperature maintenance object wife maintenance measurement instance maintenance value salad maintenance movie soup maintenance fact depression maintenance presence difficulty maintenance example version maintenance church competition property church sign bank contract sign drawing role sign improvement extent sign complaint farmer style account farmer action nothing farmer feature tool farmer scene consequence farmer hope war farmer church volume bread rate chest career maintenance resolution future year sister future context price future assumption standard future job chocolate rock sport chocolate future reputation map description power product description woman photo description fat coast description unit selection description cigarette philosophy description software day decision software average period software result marketing obligation cause software income description reputation world child class technology economy class focus meaning class population patience class cousin theory class investment speaker class frame subject class beer inspection class future
50
maintenance maintenance
future future
description description
sign sign
career career
church church
obligation obligation
volume volume
reputation reputation
chest chest
cause cause
role role
income income
version version
philosophy philosophy
difficulty difficulty
contract contract
depression depression
war war
inspection inspection
movie movie
bread bread
salad salad
property property
selection selection
feature feature
day day
wife wife
price price
action action
marketing marketing
photo photo
account account
resolution resolution
beer beer
sister sister
woman woman
context context
complaint complaint
competition competition
driver driver
economy economy
rate rate
average average
focus focus
style style
population population
object object
example example
rock rock
